File: csv/xrd.csv
time,CapMrktEstUSD,ReferenceRate,ReferenceRateBTC,ReferenceRateETH,ReferenceRateEUR,ReferenceRateUSD,volume_reported_spot_usd_1d
2022-03-14,1.14906e+09,,,,,,129399
2022-03-16,1.21944e+09,,,,,,187235
2022-03-18,1.26091e+09,,,,,,141360
2022-03-20,1.20591e+09,,,,,,98717.7
2022-03-22,1.42837e+09,,,,,,398800
2022-03-24,1.43508e+09,,,,,,320996
2022-03-26,1.44803e+09,,,,,,109113
2022-03-28,1.54394e+09,,,,,,349517
2022-03-30,1.55619e+09,,,,,,493155
2022-04-01,1.48147e+09,,,,,,275067
2022-04-03,1.49037e+09,,,,,,201233
2022-04-05,1.40871e+09,,,,,,175816
2022-04-07,1.3705e+09,,,,,,347174
2022-04-09,1.37658e+09,,,,,,245375
2022-04-11,1.30747e+09,,,,,,423831
2022-04-13,1.35329e+09,,,,,,313588
2022-04-15,1.3634e+09,,,,,,289410
2022-04-17,1.38753e+09,,,,,,245174
2022-04-19,1.34464e+09,,,,,,193006
2022-04-21,1.30355e+09,,,,,,220610
2022-04-23,1.26373e+09,,,,,,165564
2022-04-25,1.23067e+09,,,,,,285724
2022-04-27,1.24684e+09,,,,,,262828
2022-04-29,1.13592e+09,,,,,,270434
2022-05-01,1.11926e+09,,,,,,287227
2022-05-03,1.11855e+09,,,,,,275663
2022-05-05,1.12442e+09,,,,,,403232
2022-05-07,1.11446e+09,,,,,,234915
2022-05-09,9.59013e+08,,,,,,881485
2022-05-11,8.64959e+08,,,,,,704996
2022-05-13,8.70603e+08,,,,,,504598
2022-05-15,9.03368e+08,,,,,,109717
2022-05-17,8.61393e+08,,,,,,95013.3
2022-05-19,8.33005e+08,,,,,,87873.1
2022-05-21,8.25909e+08,,,,,,35508.5
2022-05-23,8.8799e+08,,,,,,301280
2022-05-25,8.81174e+08,,,,,,109860
2022-05-27,8.14644e+08,,,,,,329845
2022-05-29,8.18139e+08,,,,,,69377.9
2022-05-31,8.60145e+08,,,,,,155877
2022-06-02,8.2144e+08,,,,,,352806
2022-06-04,8.16872e+08,,,,,,73627.5
2022-06-06,8.03637e+08,,,,,,273103
2022-06-08,7.80165e+08,,,,,,351184
2022-06-10,7.64008e+08,,,,,,108449
2022-06-12,6.90892e+08,,,,,,219342
2022-06-14,6.1743e+08,,,,,,243445
2022-06-16,6.06621e+08,,,,,,376809
2022-06-18,6.13559e+08,,,,,,156420
2022-06-20,6.69252e+08,,,,,,122150
2022-06-22,6.23134e+08,,,,,,80726
2022-06-24,6.82302e+08,,,,,,90346.9
2022-06-26,6.70073e+08,,,,,,42614.3
2022-06-28,6.43231e+08,,,,,,58494
2022-06-30,6.35762e+08,,,,,,113380
2022-07-02,6.08936e+08,,,,,,91482.1
2022-07-04,6.12379e+08,,,,,,61716.2
2022-07-06,6.20892e+08,,,,,,33871.1
2022-07-08,6.36639e+08,,,,,,105259
2022-07-10,6.38054e+08,,,,,,279594
2022-07-12,6.13913e+08,,,,,,149918
2022-07-14,6.1679e+08,,,,,,131132
2022-07-16,6.31697e+08,,,,,,56196.7
2022-07-18,6.62886e+08,,,,,,160446
2022-07-20,6.42847e+08,,,,,,225416
2022-07-22,6.53389e+08,,,,,,159594
2022-07-24,6.33796e+08,,,,,,201498
2022-07-26,5.96776e+08,,,,,,412099
2022-07-28,6.39909e+08,,,,,,127132
2022-07-30,6.36443e+08,,,,,,162480
2022-08-01,6.21259e+08,,,,,,146964
2022-08-03,6.08475e+08,,,,,,134398
2022-08-05,6.04888e+08,,,,,,118200
2022-08-07,6.16499e+08,,,,,,109191
2022-08-09,6.18485e+08,,,,,,287714
2022-08-11,6.35684e+08,,,,,,177433
2022-08-13,6.403e+08,,,,,,91602.6
2022-08-15,6.35856e+08,,,,,,124897
2022-08-17,6.10865e+08,,,,,,202444
2022-08-19,5.93421e+08,,,,,,179015
2022-08-21,6.10413e+08,,,,,,191975
2022-08-23,6.16322e+08,,,,,,204598
2022-08-25,6.02826e+08,,,,,,133964
2022-08-27,5.67587e+08,,,,,,292338
2022-08-29,5.92399e+08,,,,,,151950
2022-08-31,5.7912e+08,,,,,,222497
2022-09-02,5.72699e+08,,,,,,139238
2022-09-04,5.60661e+08,,,,,,103212
2022-09-06,5.68385e+08,,,,,,147229
2022-09-08,5.89347e+08,,,,,,129406
2022-09-10,5.91036e+08,,,,,,123481
2022-09-12,6.58295e+08,,,,,,253472
2022-09-14,6.45426e+08,,,,,,234736
2022-09-16,5.94833e+08,,,,,,154989
2022-09-18,5.82159e+08,,,,,,96958.8
2022-09-20,5.7268e+08,,,,,,151567
2022-09-22,5.93506e+08,,,,,,140784
2022-09-24,5.9957e+08,,,,,,96318.1
2022-09-26,5.82903e+08,,,,,,133654
2022-09-28,6.06991e+08,,,,,,256264
2022-09-30,6.0092e+08,,,,,,136294
2022-10-02,5.98847e+08,,,,,,101516
2022-10-04,5.81224e+08,,,,,,210339
2022-10-06,6.07685e+08,,,,,,110783
2022-10-08,5.78189e+08,,,,,,61964.8
2022-10-10,5.69894e+08,,,,,,213300
2022-10-12,5.55217e+08,,,,,,148113
2022-10-14,5.40839e+08,,,,,,161988
2022-10-16,5.49923e+08,,,,,,69873.4
2022-10-18,5.36891e+08,,,,,,246358
2022-10-20,5.01318e+08,,,,,,347846
2022-10-22,4.99023e+08,,,,,,144612
2022-10-24,5.02911e+08,,,,,,114260
2022-10-26,5.23048e+08,,,,,,416503
2022-10-28,5.60093e+08,,,,,,726592
2022-10-30,5.73667e+08,,,,,,207129
2022-11-01,5.62106e+08,,,,,,271161
2022-11-03,5.10427e+08,,,,,,250572
2022-11-05,5.30739e+08,,,,,,273776
2022-11-07,5.58417e+08,,,,,,314487
2022-11-09,4.90522e+08,,,,,,651217
2022-11-11,5.04726e+08,,,,,,403726
2022-11-13,4.84909e+08,,,,,,421545
2022-11-15,5.13627e+08,,,,,,411652
2022-11-17,4.67408e+08,,,,,,112548
2022-11-19,4.51601e+08,,,,,,213438
2022-11-21,4.02917e+08,,,,,,242048
2022-11-23,4.03763e+08,,,,,,399394
2022-11-25,3.56357e+08,,,,,,363244
2022-11-27,3.7126e+08,,,,,,206093
2022-11-29,3.19284e+08,,,,,,371822
2022-12-01,3.46303e+08,,,,,,231223
2022-12-03,3.63782e+08,,,,,,174715
2022-12-05,3.59705e+08,,,,,,116232
2022-12-07,4.42068e+08,,,,,,291645
2022-12-09,4.12225e+08,,,,,,1.5648e+06
2022-12-11,3.8417e+08,,,,,,556110
2022-12-13,4.02179e+08,,,,,,157750
2022-12-15,3.87118e+08,,,,,,142630
2022-12-17,3.62688e+08,,,,,,86869.1
2022-12-19,3.52336e+08,,,,,,63071.1
2022-12-21,3.53758e+08,,,,,,86232.9
2022-12-23,3.50439e+08,,,,,,69127.8
2022-12-25,3.48147e+08,,,,,,29986
2022-12-27,3.47606e+08,,,,,,112388
2022-12-29,3.47909e+08,,,,,,166550
2022-12-31,3.47186e+08,,,,,,156102
2023-01-02,3.44049e+08,,,,,,102294
2023-01-04,3.40051e+08,,,,,,171581
2023-01-06,3.41849e+08,,,,,,154299
2023-01-08,3.45256e+08,,,,,,124385
2023-01-10,3.61189e+08,,,,,,188984
2023-01-12,3.78001e+08,,,,,,441688
2023-01-14,4.0652e+08,,,,,,751930
2023-01-16,4.03638e+08,,,,,,294320
2023-01-18,4.19479e+08,,,,,,339519
2023-01-20,4.18309e+08,,,,,,292225
2023-01-22,4.23879e+08,,,,,,404004
2023-01-24,4.2387e+08,,,,,,207662
2023-01-26,4.25355e+08,,,,,,187570
2023-01-28,5.37555e+08,,,,,,604140
2023-01-30,5.38092e+08,,,,,,1.26719e+06
2023-02-01,5.92847e+08,,,,,,551672
2023-02-03,5.97275e+08,,,,,,247124
2023-02-05,5.58731e+08,,,,,,259455
2023-02-07,5.09301e+08,,,,,,366816
2023-02-09,4.52085e+08,,,,,,487147
2023-02-11,4.79301e+08,,,,,,370664
2023-02-13,4.84069e+08,,,,,,383272
2023-02-15,5.35279e+08,,,,,,576814
2023-02-17,4.9914e+08,,,,,,436633
2023-02-19,4.91676e+08,,,,,,144600
2023-02-21,4.96327e+08,,,,,,277019
2023-02-23,4.84088e+08,,,,,,176074
2023-02-25,4.58039e+08,,,,,,357389
2023-02-27,4.64257e+08,,,,,,420142
2023-03-01,4.50278e+08,,,,,,327767
2023-03-03,4.31294e+08,,,,,,288466
2023-03-05,4.29226e+08,,,,,,341047
2023-03-07,4.12857e+08,,,,,,328570
2023-03-09,3.93199e+08,,,,,,688244
2023-03-11,3.71895e+08,,,,,,1.2708e+06
2023-03-13,3.97271e+08,,,,,,3.16088e+06
2023-03-15,3.77672e+08,,,,,,877512
2023-03-17,3.94818e+08,,,,,,983594
2023-03-19,4.45102e+08,,,,,,691950
2023-03-21,4.23594e+08,,,,,,664500
2023-03-23,4.61878e+08,,,,,,2.98098e+06
2023-03-25,4.21166e+08,,,,,,823695
2023-03-27,4.16128e+08,,,,,,833224
2023-03-29,4.26615e+08,,,,,,2.52319e+06
2023-03-31,4.1132e+08,,,,,,2.45008e+06
2023-04-02,4.24506e+08,,,,,,2.38511e+06
2023-04-04,4.57078e+08,,,,,,2.96383e+06
2023-04-06,4.80942e+08,,,,,,3.25332e+06
2023-04-08,5.66466e+08,,,,,,4.56402e+06
2023-04-10,5.2599e+08,,,,,,4.64927e+06
2023-04-12,6.32169e+08,,,,,,9.65105e+06
2023-04-14,7.55616e+08,,,,,,1.03167e+07
2023-04-16,9.05132e+08,,,,,,4.90124e+06
2023-04-18,1.418e+09,,,,,,2.75241e+07
2023-04-20,9.91509e+08,,,,,,1.34711e+07
2023-04-22,1.02497e+09,,,,,,1.10424e+07
2023-04-24,9.34784e+08,,,,,,7.65665e+06
2023-04-26,1.05064e+09,,,,,,1.37009e+07
2023-04-28,1.07784e+09,,,,,,1.4027e+07
2023-04-30,1.03151e+09,,,,,,7.39198e+06
2023-05-02,9.36726e+08,,,,,,5.61535e+06
2023-05-04,8.53057e+08,,,,,,3.34728e+06
2023-05-06,8.58202e+08,,,,,,6.2518e+06
2023-05-08,8.30353e+08,,,,,,6.16401e+06
2023-05-10,7.81164e+08,,,,,,2.53925e+06
2023-05-12,7.74579e+08,,,,,,2.42292e+06
2023-05-14,7.38721e+08,,,,,,1.64457e+06
2023-05-16,7.90173e+08,,,,,,2.44518e+06
2023-05-18,7.33142e+08,,,,,,3.01641e+06
2023-05-20,7.34882e+08,,,,,,1.48369e+06
2023-05-22,7.3318e+08,,,,,,2.29108e+06
2023-05-24,7.31121e+08,,,,,,2.11893e+06
2023-05-26,7.0514e+08,,,,,,2.3272e+06
2023-05-28,7.31957e+08,,,,,,3.42113e+06
2023-05-30,7.12736e+08,,,,,,2.39518e+06
2023-06-01,6.91067e+08,,,,,,2.49966e+06
2023-06-03,6.77985e+08,,,,,,2.48499e+06
2023-06-05,6.58923e+08,,,,,,2.49138e+06
2023-06-07,6.99811e+08,,,,,,3.48541e+06
2023-06-09,6.81143e+08,,,,,,1.43753e+06
2023-06-11,6.40812e+08,,,,,,1.57754e+06
2023-06-13,6.09026e+08,,,,,,1.91278e+06
2023-06-15,5.72166e+08,,,,,,1.50565e+06
2023-06-17,6.19614e+08,,,,,,1.89219e+06
2023-06-19,5.96666e+08,,,,,,1.67451e+06
2023-06-21,6.79931e+08,,,,,,3.15112e+06
2023-06-23,7.51689e+08,,,,,,2.89906e+06
2023-06-25,7.93721e+08,,,,,,2.57198e+06
2023-06-27,8.47545e+08,,,,,,3.30179e+06
2023-06-29,6.8373e+08,,,,,,4.01182e+06
2023-07-01,6.37601e+08,,,,,,1.8372e+06
2023-07-03,6.5317e+08,,,,,,1.68655e+06
2023-07-05,6.01271e+08,,,,,,2.91959e+06
2023-07-07,5.92312e+08,,,,,,2.01566e+06
2023-07-09,5.83215e+08,,,,,,1.57945e+06
2023-07-11,5.66053e+08,,,,,,1.68835e+06
2023-07-13,6.61726e+08,,,,,,5.44758e+06
2023-07-15,6.48965e+08,,,,,,2.91465e+06
2023-07-17,6.11669e+08,,,,,,5.38667e+06
2023-07-19,6.09465e+08,,,,,,2.39739e+06
2023-07-21,5.74262e+08,,,,,,2.04933e+06
2023-07-23,5.94493e+08,,,,,,1.33432e+06
2023-07-25,5.79536e+08,,,,,,1.13512e+06
2023-07-27,5.74486e+08,,,,,,907134
2023-07-29,5.73393e+08,,,,,,509643
2023-07-31,5.6333e+08,,,,,,785520
2023-08-02,5.3602e+08,,,,,,2.59675e+06
2023-08-04,5.36136e+08,,,,,,1.18187e+06
2023-08-06,5.3519e+08,,,,,,830139
2023-08-08,5.40869e+08,,,,,,1.05e+06
2023-08-10,5.38504e+08,,,,,,1.31266e+06
2023-08-12,5.82034e+08,,,,,,1.94292e+06
2023-08-14,5.73395e+08,,,,,,1.49379e+06
2023-08-16,5.76368e+08,,,,,,1.8673e+06
2023-08-18,5.40395e+08,,,,,,828312
2023-08-20,5.59488e+08,,,,,,798210
2023-08-22,5.59562e+08,,,,,,1.32383e+06
2023-08-24,5.40893e+08,,,,,,1.55983e+06
2023-08-26,5.45713e+08,,,,,,1.05252e+06
2023-08-28,5.3671e+08,,,,,,1.03803e+06
2023-08-30,5.40547e+08,,,,,,1.35187e+06
2023-09-01,5.34754e+08,,,,,,1.17942e+06
2023-09-03,5.31554e+08,,,,,,690083
2023-09-05,5.62542e+08,,,,,,1.37739e+06
2023-09-07,5.54902e+08,,,,,,1.06794e+06
2023-09-09,6.45183e+08,,,,,,3.23519e+06
2023-09-11,5.62417e+08,,,,,,1.78029e+06
2023-09-13,5.82577e+08,,,,,,1.96479e+06
2023-09-15,5.72459e+08,,,,,,1.72419e+06
2023-09-17,5.63061e+08,,,,,,1.07788e+06
2023-09-19,5.92457e+08,,,,,,1.78133e+06
2023-09-21,5.94244e+08,,,,,,1.88733e+06
2023-09-23,6.89876e+08,,,,,,4.58239e+06
2023-09-25,6.31086e+08,,,,,,4.92756e+06
2023-09-27,6.46351e+08,,,,,,3.20506e+06
2023-09-29,5.93443e+08,,,,,,4.56563e+06
2023-10-01,6.07203e+08,,,,,,3.75538e+06
2023-10-03,5.80026e+08,,,,,,1.51324e+06
2023-10-05,4.96424e+08,,,,,,3.41741e+06
2023-10-07,4.91455e+08,,,,,,1.76161e+06
2023-10-09,4.51823e+08,,,,,,2.21305e+06
2023-10-11,4.26097e+08,,,,,,2.44257e+06
2023-10-13,4.10056e+08,,,,,,1.72953e+06
2023-10-15,4.11451e+08,,,,,,1.61941e+06
2023-10-17,4.04221e+08,,,,,,1.00307e+06
2023-10-19,4.2899e+08,,,,,,1.19052e+06
2023-10-21,4.31999e+08,,,,,,1.3328e+06
2023-10-23,4.47282e+08,,,,,,1.81881e+06
2023-10-25,4.68817e+08,,,,,,2.23476e+06
2023-10-27,4.24157e+08,,,,,,1.97337e+06
2023-10-29,4.41987e+08,,,,,,1.07e+06
2023-10-31,4.36242e+08,,,,,,1.32994e+06
2023-11-02,4.2737e+08,,,,,,1.92541e+06
2023-11-04,4.35895e+08,,,,,,1.33838e+06
2023-11-06,4.86082e+08,,,,,,2.47867e+06
2023-11-08,4.42427e+08,,,,,,4.84545e+06
2023-11-10,4.55331e+08,,,,,,2.08377e+06
2023-11-12,4.64398e+08,,,,,,2.1404e+06
2023-11-14,4.62632e+08,,,,,,2.10353e+06
2023-11-16,4.76418e+08,,,,,,3.14866e+06
2023-11-18,4.6885e+08,,,,,,1.81273e+06
2023-11-20,5.72438e+08,,,,,,4.43134e+06
2023-11-22,6.11596e+08,,,,,,4.89588e+06
2023-11-24,5.89819e+08,,,,,,2.21434e+06
2023-11-26,5.55175e+08,,,,,,2.32696e+06
2023-11-28,5.2383e+08,,,,,,3.18551e+06
2023-11-30,5.44319e+08,,,,,,2.4298e+06
2023-12-02,6.04359e+08,,,,,,2.9495e+06
2023-12-04,5.29335e+08,,,,,,5.51156e+07
2023-12-06,5.27615e+08,,,,,,3.65145e+06
2023-12-08,5.17321e+08,,,,,,5.26762e+06
2023-12-10,5.16993e+08,,,,,,2.52136e+06
2023-12-12,5.00155e+08,,,,,,9.84024e+06
2023-12-14,4.89624e+08,,,,,,3.85134e+06
2023-12-16,4.43021e+08,,,,,,3.12903e+06
2023-12-18,4.29696e+08,,,,,,9.69967e+06
2023-12-20,4.87494e+08,,,,,,6.95543e+06
2023-12-22,4.82074e+08,,,,,,3.77261e+06
2023-12-24,4.72027e+08,,,,,,4.79359e+06
2023-12-26,4.61881e+08,,,,,,9.90862e+06
2023-12-28,4.73349e+08,,,,,,9.80898e+06
2023-12-30,4.41697e+08,,,,,,2.97756e+06
2024-01-01,4.39843e+08,,,,,,2.73646e+06
2024-01-03,4.24596e+08,,,,,,5.64994e+06
2024-01-05,4.42575e+08,,,,,,2.88806e+06
2024-01-07,4.24571e+08,,,,,,2.16717e+06
2024-01-09,4.13465e+08,,,,,,3.6566e+06
2024-01-11,4.21767e+08,,,,,,4.24796e+06
2024-01-13,4.18824e+08,,,,,,1.97763e+06
2024-01-15,4.46445e+08,,,,,,3.3246e+06
2024-01-17,4.66435e+08,,,,,,4.47825e+06
2024-01-19,4.58337e+08,,,,,,5.30316e+06
2024-01-21,4.60792e+08,,,,,,2.2786e+06
2024-01-23,4.24553e+08,,,,,,3.32912e+06
2024-01-25,4.16065e+08,,,,,,1.56987e+06
2024-01-27,4.41645e+08,,,,,,3.30533e+06
2024-01-29,4.40021e+08,,,,,,2.6898e+06
2024-01-31,4.15021e+08,,,,,,3.42014e+06
2024-02-02,4.21451e+08,,,,,,1.7132e+06
2024-02-04,4.09603e+08,,,,,,1.61749e+06
2024-02-06,4.08397e+08,,,,,,2.23424e+06
2024-02-08,4.02948e+08,,,,,,2.00649e+06
2024-02-10,4.38459e+08,,,,,,2.76179e+06
2024-02-12,4.30968e+08,,,,,,2.81347e+06
2024-02-14,4.50991e+08,,,,,,3.0916e+06
2024-02-16,4.44875e+08,,,,,,2.56725e+06
2024-02-18,5.24468e+08,,,,,,5.79909e+06
2024-02-20,5.02676e+08,,,,,,6.02764e+06
2024-02-22,4.77075e+08,,,,,,3.61701e+06
2024-02-24,4.73762e+08,,,,,,2.12981e+06
2024-02-26,4.96577e+08,,,,,,3.60133e+06
2024-02-28,4.5992e+08,,,,,,6.89696e+06
2024-03-01,4.68291e+08,,,,,,3.69042e+06
2024-03-03,4.68632e+08,,,,,,4.91541e+06
2024-03-05,4.26809e+08,,,,,,7.45992e+06
2024-03-07,4.12769e+08,,,,,,5.2964e+06
2024-03-09,4.1651e+08,,,,,,2.40441e+06
2024-03-11,4.57268e+08,,,,,,4.79006e+06
2024-03-13,6.35244e+08,,,,,,1.92542e+07
2024-03-15,6.72518e+08,,,,,,1.12714e+07
2024-03-17,7.00588e+08,,,,,,1.43198e+07
2024-03-19,6.62478e+08,,,,,,1.20791e+07
2024-03-21,7.13954e+08,,,,,,5.40128e+06
2024-03-23,7.0318e+08,,,,,,4.29669e+06
2024-03-25,8.41067e+08,,,,,,1.33092e+07
2024-03-27,8.0954e+08,,,,,,7.09456e+06
2024-03-29,8.06806e+08,,,,,,5.68687e+06
2024-03-31,7.9798e+08,,,,,,2.48986e+06
2024-04-02,7.03778e+08,,,,,,5.20532e+06
2024-04-04,7.24615e+08,,,,,,3.83282e+06
2024-04-06,7.58467e+08,,,,,,3.33038e+06
2024-04-08,8.04542e+08,,,,,,3.95842e+06
2024-04-10,7.43967e+08,,,,,,4.98134e+06
2024-04-12,6.45812e+08,,,,,,6.12436e+06
2024-04-14,6.15363e+08,,,,,,3.73934e+06
2024-04-16,5.6309e+08,,,,,,3.4215e+06
2024-04-18,5.48342e+08,,,,,,2.57555e+06
2024-04-20,5.74011e+08,,,,,,2.39136e+06
2024-04-22,5.73668e+08,,,,,,1.77351e+06
2024-04-24,5.38471e+08,,,,,,1.27916e+06
2024-04-26,5.35696e+08,,,,,,1.31964e+06
2024-04-28,5.21796e+08,,,,,,1.00782e+06
2024-04-30,4.8103e+08,,,,,,2.88698e+06
2024-05-02,4.53058e+08,,,,,,4.2294e+06
2024-05-04,4.85821e+08,,,,,,2.6684e+06
2024-05-06,4.59307e+08,,,,,,1.43563e+06
2024-05-08,4.39513e+08,,,,,,1.31283e+06
2024-05-10,4.67422e+08,,,,,,4.15013e+06
2024-05-12,4.6216e+08,,,,,,883433
2024-05-14,4.46112e+08,,,,,,1.05874e+06
2024-05-16,4.59694e+08,,,,,,1.33073e+06
2024-05-18,4.7488e+08,,,,,,950034
2024-05-20,4.81439e+08,,,,,,1.9344e+06
2024-05-22,4.54727e+08,,,,,,2.33043e+06
2024-05-24,4.3179e+08,,,,,,2.28137e+06
2024-05-26,4.28182e+08,,,,,,2.09549e+06
2024-05-28,4.19995e+08,,,,,,2.62534e+06
2024-05-30,4.11444e+08,,,,,,3.29915e+06
2024-06-01,4.07972e+08,,,,,,1.41123e+06
2024-06-03,4.08736e+08,,,,,,958195
2024-06-05,4.18798e+08,,,,,,2.08921e+06
2024-06-07,4.09395e+08,,,,,,2.79845e+06
2024-06-09,4.09242e+08,,,,,,897695
2024-06-11,3.88559e+08,,,,,,2.29426e+06
2024-06-13,3.67259e+08,,,,,,2.20055e+06
2024-06-15,3.61153e+08,,,,,,857163
2024-06-17,3.4837e+08,,,,,,2.2053e+06
2024-06-19,3.42632e+08,,,,,,1.02719e+06
2024-06-21,3.26647e+08,,,,,,780334
2024-06-23,3.17282e+08,,,,,,664645
2024-06-25,3.13279e+08,,,,,,1.33162e+06
2024-06-27,3.12769e+08,,,,,,638961
2024-06-29,3.09047e+08,,,,,,863619
2024-07-01,3.23012e+08,,,,,,969337
2024-07-03,3.17962e+08,,,,,,3.93509e+06
2024-07-05,3.00485e+08,,,,,,2.86947e+06
2024-07-07,2.90826e+08,,,,,,1.77727e+06
2024-07-09,2.97373e+08,,,,,,1.33201e+06
2024-07-11,2.92963e+08,,,,,,689662
2024-07-13,2.9237e+08,,,,,,1.12992e+06
2024-07-15,3.12206e+08,,,,,,1.13204e+06
2024-07-17,3.126e+08,,,,,,1.58451e+06
2024-07-19,3.05309e+08,,,,,,2.8777e+06
2024-07-21,3.01302e+08,,,,,,1.37715e+06
2024-07-23,2.90626e+08,,,,,,1.13911e+06
2024-07-25,2.85341e+08,,,,,,995220
2024-07-27,3.00005e+08,,,,,,1.03852e+06
2024-07-29,2.94412e+08,,,,,,812885
2024-07-31,2.92625e+08,,,,,,7.54805e+06
2024-08-02,2.68717e+08,,,,,,2.64953e+06
2024-08-04,2.48142e+08,,,,,,2.37582e+06
2024-08-06,2.61536e+08,,,,,,1.67673e+06
2024-08-08,2.88544e+08,,,,,,1.38602e+06
2024-08-10,2.96882e+08,,,,,,1.11587e+06
2024-08-12,2.84832e+08,,,,,,1.16139e+06
2024-08-14,2.78969e+08,,,,,,969470
2024-08-16,2.662e+08,,,,,,1.15914e+06
2024-08-18,2.49758e+08,,,,,,1.32136e+06
2024-08-20,2.4373e+08,,,,,,1.11435e+06
2024-08-22,2.49858e+08,,,,,,1.17723e+06
2024-08-24,2.67178e+08,,,,,,1.08694e+06
2024-08-26,2.59475e+08,,,,,,1.14197e+06
2024-08-28,2.46855e+08,,,,,,1.18625e+06
2024-08-30,2.45071e+08,,,,,,1.11503e+06
2024-09-01,2.36916e+08,,,,,,681346
2024-09-03,2.38775e+08,,,,,,714637
2024-09-05,2.31814e+08,,,,,,748211
2024-09-07,2.15256e+08,,,,,,1.07628e+06
2024-09-09,2.20397e+08,,,,,,1.05764e+06
2024-09-11,2.05355e+08,,,,,,1.44939e+06
2024-09-13,2.30579e+08,,,,,,1.67209e+06
2024-09-15,2.16613e+08,,,,,,875599
2024-09-17,2.1762e+08,,,,,,739058
2024-09-19,2.25774e+08,,,,,,1.08434e+06
2024-09-21,2.28613e+08,,,,,,1.00668e+06
2024-09-23,2.22605e+08,,,,,,753684
2024-09-25,2.22824e+08,,,,,,1.19874e+06
2024-09-27,2.29049e+08,,,,,,3.45464e+06
2024-09-29,2.20482e+08,,,,,,1.22004e+06
2024-10-01,1.82785e+08,,,,,,1.99564e+06
2024-10-03,1.73025e+08,,,,,,1.5433e+06
2024-10-05,1.71517e+08,,,,,,1.12022e+06
2024-10-07,1.70198e+08,,,,,,962507
2024-10-09,1.54458e+08,,,,,,1.13226e+06
2024-10-11,1.58191e+08,,,,,,1.36853e+06
2024-10-13,1.57394e+08,,,,,,819596
2024-10-15,1.7093e+08,,,,,,936985
2024-10-17,1.6753e+08,,,,,,564768
2024-10-19,1.83004e+08,,,,,,945209
2024-10-21,1.76133e+08,,,,,,690705
2024-10-23,1.64982e+08,,,,,,499327
2024-10-25,1.54378e+08,,,,,,647119
2024-10-27,1.63018e+08,,,,,,274166
2024-10-29,1.66431e+08,,,,,,442748
2024-10-31,1.69998e+08,,,,,,1.25852e+06
2024-11-02,1.67547e+08,,,,,,394781
2024-11-04,1.54791e+08,,,,,,380589
2024-11-06,1.67361e+08,,,,,,815540
2024-11-08,1.71844e+08,,,,,,628522
2024-11-10,1.82464e+08,,,,,,955257
2024-11-12,1.71205e+08,,,,,,1.53185e+06
2024-11-14,1.68149e+08,,,,,,497124
2024-11-16,1.72777e+08,,,,,,556736
2024-11-18,1.81848e+08,,,,,,711694
2024-11-20,1.76487e+08,,,,,,887897
2024-11-22,2.18258e+08,,,,,,2.09473e+06
2024-11-24,2.25171e+08,,,,,,1.07912e+06
2024-11-26,2.52964e+08,,,,,,3.10557e+06
2024-11-28,2.88574e+08,,,,,,2.52425e+06
2024-11-30,3.25096e+08,,,,,,2.26505e+06
2024-12-02,3.13737e+08,,,,,,1.71911e+06
2024-12-04,3.61492e+08,,,,,,3.11382e+06
2024-12-06,3.77329e+08,,,,,,4.27375e+06
2024-12-08,3.80026e+08,,,,,,3.17808e+06
2024-12-10,3.44729e+08,,,,,,3.9948e+06
2024-12-12,3.60149e+08,,,,,,2.51681e+06
2024-12-14,3.41973e+08,,,,,,2.55177e+06
2024-12-16,3.48787e+08,,,,,,1.87171e+06
2024-12-18,2.87499e+08,,,,,,1.52045e+06
2024-12-20,2.74625e+08,,,,,,2.14013e+06
2024-12-22,2.6113e+08,,,,,,850803
2024-12-24,2.76299e+08,,,,,,1.01801e+06
2024-12-26,2.49831e+08,,,,,,800758
2024-12-28,2.59306e+08,,,,,,466069
2024-12-30,2.43586e+08,,,,,,685234
2025-01-01,2.34868e+08,,,,,,808081
2025-01-03,2.5037e+08,,,,,,376253
2025-01-05,2.55101e+08,,,,,,478244
2025-01-07,2.3676e+08,,,,,,672959
2025-01-09,2.01556e+08,,,,,,847865
2025-01-11,2.05419e+08,,,,,,533761
2025-01-13,1.95242e+08,,,,,,1.0789e+06
2025-01-15,2.09419e+08,,,,,,812605
2025-01-17,2.00665e+08,,,,,,494855
2025-01-19,1.68572e+08,,,,,,1.3261e+06
2025-01-21,1.74291e+08,,,,,,763177
2025-01-23,1.66661e+08,,,,,,1.48295e+06
2025-01-25,1.3962e+08,,,,,,1.11727e+06
2025-01-27,1.26399e+08,,,,,,1.43517e+06
2025-01-29,1.19538e+08,,,,,,758736
2025-01-31,1.17265e+08,,,,,,998939
2025-02-02,1.07325e+08,,,,,,1.50056e+06
2025-02-04,1.03592e+08,,,,,,1.48198e+06
2025-02-06,9.86144e+07,,,,,,811860
2025-02-08,1.0153e+08,,,,,,279417
2025-02-10,1.09825e+08,,,,,,743390
2025-02-12,1.15976e+08,,,,,,535337
2025-02-14,1.40545e+08,,,,,,928043
2025-02-16,1.39163e+08,,,,,,738693
2025-02-18,1.23752e+08,,,,,,942464
2025-02-20,1.26321e+08,,,,,,463080
2025-02-22,1.26083e+08,,,,,,231741
2025-02-24,1.19537e+08,,,,,,573400
2025-02-26,1.07532e+08,,,,,,428134
2025-02-28,9.83358e+07,,,,,,697411
2025-03-02,1.05157e+08,,,,,,534624
2025-03-04,9.52928e+07,,,,,,381253
2025-03-06,9.11401e+07,,,,,,431643
2025-03-08,8.48563e+07,,,,,,364186
2025-03-10,7.37249e+07,,,,,,444625
2025-03-12,7.3518e+07,,,,,,603429
2025-03-14,6.53817e+07,,,,,,580164
2025-03-16,7.82934e+07,,,,,,1.06443e+06
2025-03-18,7.48166e+07,,,,,,345885
2025-03-20,7.5878e+07,,,,,,295539
2025-03-22,7.81499e+07,,,,,,158006
2025-03-24,8.1974e+07,,,,,,400154
2025-03-26,8.86412e+07,,,,,,489666
2025-03-28,9.28423e+07,,,,,,881163
2025-03-30,8.0496e+07,,,,,,356960
2025-04-01,8.21718e+07,,,,,,220634
2025-04-03,7.84368e+07,,,,,,374776
2025-04-05,7.8315e+07,,,,,,276784
2025-04-07,7.51508e+07,,,,,,1.13387e+06
2025-04-09,9.69802e+07,,,,,,1.85355e+06
2025-04-11,9.14821e+07,,,,,,794981
2025-04-13,8.68996e+07,,,,,,475978
2025-04-15,1.03493e+08,,,,,,1.14884e+06
2025-04-17,1.14492e+08,,,,,,1.30805e+06
2025-04-19,1.17601e+08,,,,,,1.07769e+06
2025-04-21,1.13687e+08,,,,,,675940
2025-04-23,1.26374e+08,,,,,,838100
2025-04-25,1.07747e+08,,,,,,1.04961e+06
2025-04-27,1.00859e+08,,,,,,591476
2025-04-29,9.26178e+07,,,,,,341990
2025-05-01,9.45137e+07,,,,,,590649
2025-05-03,8.79071e+07,,,,,,614514
2025-05-05,8.94688e+07,,,,,,371352
2025-05-07,8.61496e+07,,,,,,328910
2025-05-09,8.90131e+07,,,,,,595783
2025-05-11,8.77401e+07,,,,,,629787
2025-05-13,8.70269e+07,,,,,,388070
2025-05-15,8.06493e+07,,,,,,615426
2025-05-17,8.38428e+07,,,,,,333563
2025-05-19,8.37202e+07,,,,,,354961
2025-05-21,8.55192e+07,,,,,,227348
2025-05-23,8.07496e+07,,,,,,361740
2025-05-25,8.17536e+07,,,,,,330132
2025-05-27,9.13415e+07,,,,,,462094
2025-05-29,8.32821e+07,,,,,,206036
2025-05-31,8.11023e+07,,,,,,266443
2025-06-02,8.17034e+07,,,,,,150810
2025-06-04,8.06555e+07,,,,,,166687
2025-06-06,6.61049e+07,,,,,,822782
2025-06-08,6.72823e+07,,,,,,342631
2025-06-10,7.10392e+07,,,,,,259656
2025-06-12,6.83403e+07,,,,,,221643
2025-06-14,6.96852e+07,,,,,,214283
2025-06-16,7.14522e+07,,,,,,184466
2025-06-18,7.51345e+07,,,,,,146701
2025-06-20,7.79262e+07,,,,,,272358
2025-06-22,7.75177e+07,,,,,,334671
2025-06-24,8.52222e+07,,,,,,249891
2025-06-26,8.70622e+07,,,,,,220159
2025-06-28,8.11714e+07,,,,,,491765
2025-06-30,7.8737e+07,,,,,,215957
2025-07-02,8.084e+07,,,,,,276806
2025-07-04,7.78929e+07,,,,,,97236.2
2025-07-06,7.70349e+07,,,,,,179977
2025-07-08,7.48111e+07,,,,,,331671
2025-07-10,7.96017e+07,,,,,,338969
2025-07-12,8.62889e+07,,,,,,253202
2025-07-14,9.76261e+07,,,,,,504474
2025-07-16,1.08604e+08,,,,,,480349
2025-07-18,1.01065e+08,,,,,,572325
2025-07-20,1.01852e+08,,,,,,423902
2025-07-22,9.58005e+07,,,,,,306386
2025-07-24,9.29787e+07,,,,,,484953
2025-07-26,9.20171e+07,,,,,,256713
2025-07-28,9.21727e+07,,,,,,300992
2025-07-30,5.31572e+07,,,,,,1.10012e+06
2025-08-01,4.57873e+07,,,,,,905303
2025-08-03,4.5324e+07,,,,,,262098
2025-08-05,4.21893e+07,,,,,,365531
2025-08-07,4.65356e+07,,,,,,472331
2025-08-09,6.61031e+07,,,,,,1.29781e+06
2025-08-11,7.71563e+07,,,,,,725157
2025-08-13,7.56161e+07,,,,,,352995
2025-08-15,7.01113e+07,,,,,,212999
2025-08-17,6.88974e+07,,,,,,171740
2025-08-19,6.15474e+07,,,,,,470189
2025-08-21,6.02634e+07,,,,,,200360
2025-08-23,6.40455e+07,,,,,,195540
2025-08-25,6.01674e+07,,,,,,234491
2025-08-27,6.2443e+07,,,,,,173279
2025-08-29,6.00045e+07,,,,,,213536
2025-08-31,5.96154e+07,,,,,,197709
2025-09-02,5.54085e+07,,,,,,279204
2025-09-04,5.32316e+07,,,,,,372176
2025-09-06,6.13967e+07,,,,,,352936
2025-09-08,6.88734e+07,,,,,,461160
2025-09-10,7.51948e+07,,,,,,391274
2025-09-12,6.97764e+07,,,,,,341009
2025-09-14,6.43948e+07,,,,,,267509
2025-09-16,5.22458e+07,,,,,,400770
2025-09-18,5.43409e+07,,,,,,310562
2025-09-20,5.01125e+07,,,,,,322007
2025-09-22,4.90153e+07,,,,,,343835
2025-09-24,4.78111e+07,,,,,,458734
2025-09-26,4.54588e+07,,,,,,253786
2025-09-28,4.49237e+07,,,,,,184260
2025-09-30,4.48954e+07,,,,,,300201
2025-10-02,4.71918e+07,,,,,,236055
2025-10-04,4.48993e+07,,,,,,274534
2025-10-06,4.32189e+07,,,,,,324350
2025-10-08,4.28989e+07,,,,,,250225
2025-10-10,3.78697e+07,,,,,,479589
2025-10-12,3.41358e+07,,,,,,325468
2025-10-14,3.2715e+07,,,,,,310569
2025-10-16,2.7652e+07,,,,,,269696
2025-10-18,3.0923e+07,,,,,,159452
2025-10-20,3.29225e+07,,,,,,216269
2025-10-22,3.01915e+07,,,,,,196660
2025-10-24,3.17816e+07,,,,,,166273
2025-10-26,3.35552e+07,,,,,,195076
2025-10-28,3.36748e+07,,,,,,2.12858e+07
2025-10-30,3.31272e+07,,,,,,149849
2025-11-01,3.41974e+07,,,,,,224829
2025-11-03,3.26277e+07,,,,,,268406
2025-11-05,3.07996e+07,,,,,,172630
2025-11-07,3.12425e+07,,,,,,206756
2025-11-09,3.25005e+07,,,,,,201038
2025-11-11,3.13408e+07,,,,,,161073
2025-11-13,3.3668e+07,,,,,,506395
2025-11-15,3.32599e+07,,,,,,122893
2025-11-17,3.14998e+07,,,,,,197464
2025-11-19,2.82966e+07,,,,,,391934
2025-11-21,2.68399e+07,,,,,,379363
2025-11-23,2.74323e+07,,,,,,212478
2025-11-25,2.82971e+07,0.00211321,2.39111e-08,7.14245e-07,0.00183477,0.00211321,125317
2025-11-27,2.86084e+07,0.00223892,2.47533e-08,7.40295e-07,0.00193113,0.00223892,170835
2025-11-29,2.7353e+07,0.00210594,2.31447e-08,6.93787e-07,0.00181684,0.00210594,138441
2025-12-01,,0.00208865,2.30515e-08,6.9561e-07,0.00180134,0.00208865,